"","TrialNumber","Condition","Run","P1_1","P1_2","SafeOption","P2_2","O2_2","O2_1","ProbNumber","O1_2","O1_1","EV2","EV1","ProbType","P2_1","ran","order","trialStartTime","viewingEndTime","viewingDur_total","thinkOnset","decideOnset","leftRight","resp","safeChoice","resp_onset","rt","decideDur_total","assignedITI","decide_pad","totalITI","ITI_onset","TrialEndTime","samplingCount_total","samplingCount_risky","samplingCount_safe","switchCount","samplingDur_assigned","samplingDur_total","samplingEndTime","sampling_pad","PID"
"1",1,"Descriptive","Run1",0.2,1,2,0,0,0,"SD12",6,29,6,5.8,"SD",0.8,1,0,0.0304285,6.07381,6.04338,6.07412,9.10662,0,"1.0","1.0","10.8000297546","1.69341433048",11.0696,1.7448,"0.0065856478177",1.75139,11.1169,12.8734,NA,NA,NA,NA,NA,NA,NA,NA,"A001"
"2",1,"Experiential","Run1",0.6,1,2,0,0,-12,"MD12",12,30,12,13.2,"MD",0.4,1,0,5.04386,NA,NA,21.687,24.7181,1,"2.0","0.0","25.2915344238","0.573479652405",20.5477,1.4961,"1.12652039528",2.98036,25.8023,28.7848,24,14,10,3,17,16.6424,21.6862,0.357744,"A001"
"3",1,"Descriptive","Run1",0.2,1,2,0,0,0,"SD12",6,29,6,5.8,"SD",0.8,1,0,0.0304285,6.07381,6.04338,6.07412,9.10662,0,"1.0","1.0","10.8000297546","1.69341433048",11.0696,1.7448,"0.0065856478177",1.75139,11.1169,12.8734,NA,NA,NA,NA,NA,NA,NA,NA,"A001"
"4",1,"Experiential","Run2",0.3,1,2,0,0,-4,"MD11",5,27,5,5.3,"MD",0.7,1,0,3.71462,NA,NA,20.3129,23.3431,1,"2.0","0.0","23.7542991638","0.411227583885",20.3397,1.2297,"1.2887724638",2.92112,24.2644,27.1936,26,9,17,2,17,16.5975,20.3121,0.402647,"A001"
"5",1,"Descriptive","Run2",0.75,0.75,1,0.25,30,10,"RR3",-5,2,3.75,4,"RR",0.25,1,0,0.0383165,6.07235,6.03403,6.07269,9.10551,0,"1.0","0.0","9.83989429474","0.734386384487",10.1016,1.8199,"0.965613603592",2.78551,10.158,12.9552,NA,NA,NA,NA,NA,NA,NA,NA,"A001"
"6",1,"Experiential","Run1",0.6,1,2,0,0,-12,"MD12",12,30,12,13.2,"MD",0.4,1,0,5.04386,NA,NA,21.687,24.7181,1,"2.0","0.0","25.2915344238","0.573479652405",20.5477,1.4961,"1.12652039528",2.98036,25.8023,28.7848,24,14,10,3,17,16.6424,21.6862,0.357744,"A001"
"7",1,"Descriptive","Run2",0.75,0.75,1,0.25,30,10,"RR3",-5,2,3.75,4,"RR",0.25,1,0,0.0383165,6.07235,6.03403,6.07269,9.10551,0,"1.0","0.0","9.83989429474","0.734386384487",10.1016,1.8199,"0.965613603592",2.78551,10.158,12.9552,NA,NA,NA,NA,NA,NA,NA,NA,"A001"
"8",1,"Experiential","Run2",0.3,1,2,0,0,-4,"MD11",5,27,5,5.3,"MD",0.7,1,0,3.71462,NA,NA,20.3129,23.3431,1,"2.0","0.0","23.7542991638","0.411227583885",20.3397,1.2297,"1.2887724638",2.92112,24.2644,27.1936,26,9,17,2,17,16.5975,20.3121,0.402647,"A001"
"9",2,"Descriptive","Run1",0.9,1,2,0,0,-10,"MD8",3,5,3,3.5,"MD",0.1,1,1,12.9034,18.9388,6.0354,18.9391,21.9721,0,"2.0","0.0","22.9359264374","0.963874578476",10.3326,3.9403,"0.736125409603",4.67643,23.2526,27.938,NA,NA,NA,NA,NA,NA,NA,NA,"A001"
"10",2,"Experiential","Run1",0.75,0.75,1,0.25,30,10,"RR3",-5,2,3.75,4,"RR",0.25,1,1,28.7851,NA,NA,43.7673,46.7992,0,"2.0","1.0","47.3714103699","0.572204947472",18.8863,2.4102,"1.12779510021",3.55637,47.8818,51.4485,23,14,9,3,15,14.9817,43.7668,0.018375,"A001"
"11",2,"Descriptive","Run1",0.9,1,2,0,0,-10,"MD8",3,5,3,3.5,"MD",0.1,1,1,12.9034,18.9388,6.0354,18.9391,21.9721,0,"2.0","0.0","22.9359264374","0.963874578476",10.3326,3.9403,"0.736125409603",4.67643,23.2526,27.938,NA,NA,NA,NA,NA,NA,NA,NA,"A001"
"12",2,"Experiential","Run2",0.1,1,2,0,0,-5,"MD5",-4,25,-4,-2,"MD",0.9,1,1,27.1939,NA,NA,41.9429,44.9741,0,"2.0","0.0","45.946269989","0.972183644772",19.0523,4.6191,"0.727816343307",5.59854,46.4562,52.0572,22,12,10,2,15,14.7485,41.9424,0.25162,"A001"
"13",2,"Descriptive","Run2",0.6,0.5,1,0.5,50,25,"RR6",-15,12,17.5,17.2,"RR",0.4,1,1,12.9839,19.0209,6.03708,19.0212,22.0538,0,"1.0","0.0","22.5039253235","0.450091958046",9.82006,3.1124,"1.24990808964",4.36231,22.8202,27.1869,NA,NA,NA,NA,NA,NA,NA,NA,"A001"
"14",2,"Experiential","Run1",0.75,0.75,1,0.25,30,10,"RR3",-5,2,3.75,4,"RR",0.25,1,1,28.7851,NA,NA,43.7673,46.7992,0,"2.0","1.0","47.3714103699","0.572204947472",18.8863,2.4102,"1.12779510021",3.55637,47.8818,51.4485,23,14,9,3,15,14.9817,43.7668,0.018375,"A001"
"15",2,"Descriptive","Run2",0.6,0.5,1,0.5,50,25,"RR6",-15,12,17.5,17.2,"RR",0.4,1,1,12.9839,19.0209,6.03708,19.0212,22.0538,0,"1.0","0.0","22.5039253235","0.450091958046",9.82006,3.1124,"1.24990808964",4.36231,22.8202,27.1869,NA,NA,NA,NA,NA,NA,NA,NA,"A001"
"16",2,"Experiential","Run2",0.1,1,2,0,0,-5,"MD5",-4,25,-4,-2,"MD",0.9,1,1,27.1939,NA,NA,41.9429,44.9741,0,"2.0","0.0","45.946269989","0.972183644772",19.0523,4.6191,"0.727816343307",5.59854,46.4562,52.0572,22,12,10,2,15,14.7485,41.9424,0.25162,"A001"
"17",3,"Descriptive","Run1",0.7,1,2,0,0,0,"SD5",-8,-10,-8,-7,"SD",0.3,1,2,27.9705,34.0206,6.05012,34.0208,37.0535,1,"NA","NA","NA","NA",2,1.3975,"NA",1.3975,39.0662,40.4702,NA,NA,NA,NA,NA,NA,NA,NA,"A001"
"18",3,"Experiential","Run1",0.4,1,2,0,0,0,"SD2",-2,-4,-2,-1.6,"SD",0.6,1,2,51.4488,NA,NA,68.4485,71.4792,0,"2.0","0.0","71.931427002","0.452178090811",20.7826,1.2135,"1.24782192707",2.46226,72.4419,74.9124,25,17,8,2,17,16.9991,68.448,0.000936777,"A001"
"19",3,"Descriptive","Run1",0.7,1,2,0,0,0,"SD5",-8,-10,-8,-7,"SD",0.3,1,2,27.9705,34.0206,6.05012,34.0208,37.0535,1,"NA","NA","NA","NA",2,1.3975,"NA",1.3975,39.0662,40.4702,NA,NA,NA,NA,NA,NA,NA,NA,"A001"
"20",3,"Experiential","Run2",0.9,0.7,1,0.3,25,15,"RR10",-3,5,5.4,6,"RR",0.1,1,2,52.0575,NA,NA,69.0725,72.1041,0,"1.0","0.0","72.5543899536","0.450307190418",20.7968,2.5575,"1.24969279766",3.79288,73.0648,76.8703,26,6,20,2,17,17.0144,69.072,-0.0143118,"A001"
"21",3,"Descriptive","Run2",0.8,1,2,0,0,0,"SD6",12,14,12,11.2,"SD",0.2,1,2,27.2126,33.2525,6.03991,33.2527,36.2853,1,"2.0","0.0","37.0478820801","0.76254594326",10.1353,1.4355,"0.937454044819",2.37295,37.3634,39.752,NA,NA,NA,NA,NA,NA,NA,NA,"A001"
"22",3,"Experiential","Run1",0.4,1,2,0,0,0,"SD2",-2,-4,-2,-1.6,"SD",0.6,1,2,51.4488,NA,NA,68.4485,71.4792,0,"2.0","0.0","71.931427002","0.452178090811",20.7826,1.2135,"1.24782192707",2.46226,72.4419,74.9124,25,17,8,2,17,16.9991,68.448,0.000936777,"A001"
"23",3,"Descriptive","Run2",0.8,1,2,0,0,0,"SD6",12,14,12,11.2,"SD",0.2,1,2,27.2126,33.2525,6.03991,33.2527,36.2853,1,"2.0","0.0","37.0478820801","0.76254594326",10.1353,1.4355,"0.937454044819",2.37295,37.3634,39.752,NA,NA,NA,NA,NA,NA,NA,NA,"A001"
"24",3,"Experiential","Run2",0.9,0.7,1,0.3,25,15,"RR10",-3,5,5.4,6,"RR",0.1,1,2,52.0575,NA,NA,69.0725,72.1041,0,"1.0","0.0","72.5543899536","0.450307190418",20.7968,2.5575,"1.24969279766",3.79288,73.0648,76.8703,26,6,20,2,17,17.0144,69.072,-0.0143118,"A001"
"25",4,"Descriptive","Run1",0.8,1,2,0,0,0,"SD9",13,16,13,12.8,"SD",0.2,1,3,40.4929,46.5524,6.05956,46.5527,49.5853,1,"2","0","49.999904472","0.414568042033",9.80702,1.1584,"1.28543195797",2.44383,50.3155,52.7687,NA,NA,NA,NA,NA,NA,NA,NA,"A001"
"26",4,"Experiential","Run1",0.4,1,2,0,0,-20,"MD4",-4,15,-4,-6,"MD",0.6,1,3,74.9127,NA,NA,91.7956,94.8268,0,"2.0","0.0","96.2035751343","1.37681257725",21.5909,1.7267,"0.323187381029",2.1676,96.7143,98.8935,25,19,6,2,17,16.8824,91.7951,0.117716,"A001"
"27",4,"Descriptive","Run1",0.8,1,2,0,0,0,"SD9",13,16,13,12.8,"SD",0.2,1,3,40.4929,46.5524,6.05956,46.5527,49.5853,1,"2","0","49.999904472","0.414568042033",9.80702,1.1584,"1.28543195797",2.44383,50.3155,52.7687,NA,NA,NA,NA,NA,NA,NA,NA,"A001"
"28",4,"Experiential","Run2",0.7,0.1,1,0.9,30,38,"RR11",-10,22,26,26.8,"RR",0.3,1,3,76.8706,NA,NA,93.3856,96.4183,0,"1.0","0.0","96.8662109375","0.447945803404",20.2957,1.1477,"1.25205421448",2.88531,97.3783,100.268,23,11,12,1,17,16.5145,93.3851,0.485555,"A001"
"29",4,"Descriptive","Run2",0.8,0.6,1,0.4,18,10,"RR9",-4,2,4.8,3.6,"RR",0.2,1,3,39.7823,45.8173,6.03493,45.8175,48.8511,1,"1.0","0.0","49.6719818115","0.820925951004",10.1896,1.61,"0.879074037075",2.48907,49.9896,52.484,NA,NA,NA,NA,NA,NA,NA,NA,"A001"
"30",4,"Experiential","Run1",0.4,1,2,0,0,-20,"MD4",-4,15,-4,-6,"MD",0.6,1,3,74.9127,NA,NA,91.7956,94.8268,0,"2.0","0.0","96.2035751343","1.37681257725",21.5909,1.7267,"0.323187381029",2.1676,96.7143,98.8935,25,19,6,2,17,16.8824,91.7951,0.117716,"A001"
"31",4,"Descriptive","Run2",0.8,0.6,1,0.4,18,10,"RR9",-4,2,4.8,3.6,"RR",0.2,1,3,39.7823,45.8173,6.03493,45.8175,48.8511,1,"1.0","0.0","49.6719818115","0.820925951004",10.1896,1.61,"0.879074037075",2.48907,49.9896,52.484,NA,NA,NA,NA,NA,NA,NA,NA,"A001"
"32",4,"Experiential","Run2",0.7,0.1,1,0.9,30,38,"RR11",-10,22,26,26.8,"RR",0.3,1,3,76.8706,NA,NA,93.3856,96.4183,0,"1.0","0.0","96.8662109375","0.447945803404",20.2957,1.1477,"1.25205421448",2.88531,97.3783,100.268,23,11,12,1,17,16.5145,93.3851,0.485555,"A001"
"33",5,"Descriptive","Run1",0.9,1,2,0,0,-30,"MD2",-1,2,-1,-1.2,"MD",0.1,1,4,52.7944,58.851,6.05661,58.8512,61.8839,0,"2","0","62.3839183127","0.500056070741",9.88956,3.6229,"1.19994392926",4.82284,62.6999,67.5337,NA,NA,NA,NA,NA,NA,NA,NA,"A001"
"34",5,"Experiential","Run1",0.9,1,2,0,0,-8,"MD7",4,6,4,4.6,"MD",0.1,1,4,98.8938,NA,NA,116.792,119.824,1,"2.0","0.0","120.211448669","0.387457370758",21.6177,1.3679,"1.31254267693",2.7827,120.722,123.507,25,19,6,1,18,17.8978,116.792,0.102257,"A001"
"35",5,"Descriptive","Run1",0.9,1,2,0,0,-30,"MD2",-1,2,-1,-1.2,"MD",0.1,1,4,52.7944,58.851,6.05661,58.8512,61.8839,0,"2","0","62.3839183127","0.500056070741",9.88956,3.6229,"1.19994392926",4.82284,62.6999,67.5337,NA,NA,NA,NA,NA,NA,NA,NA,"A001"
"36",5,"Experiential","Run2",0.2,1,2,0,0,0,"SD3",-7,-34,-7,-6.8,"SD",0.8,1,4,100.268,NA,NA,118.117,121.148,1,"2.0","0.0","121.562141418","0.413927674294",21.5939,1.3975,"1.28607237339",2.83579,122.073,124.915,28,15,13,3,18,17.8479,118.116,0.152222,"A001"
"37",5,"Descriptive","Run2",0.6,1,2,0,0,-12,"MD12",12,30,12,13.2,"MD",0.4,1,4,52.5122,58.5663,6.05408,58.5665,61.5993,0,"2.0","0.0","62.2799224854","0.680626451969",10.0677,1.5147,"1.01937353611",2.53407,62.5966,65.1326,NA,NA,NA,NA,NA,NA,NA,NA,"A001"
"38",5,"Experiential","Run1",0.9,1,2,0,0,-8,"MD7",4,6,4,4.6,"MD",0.1,1,4,98.8938,NA,NA,116.792,119.824,1,"2.0","0.0","120.211448669","0.387457370758",21.6177,1.3679,"1.31254267693",2.7827,120.722,123.507,25,19,6,1,18,17.8978,116.792,0.102257,"A001"
"39",5,"Descriptive","Run2",0.6,1,2,0,0,-12,"MD12",12,30,12,13.2,"MD",0.4,1,4,52.5122,58.5663,6.05408,58.5665,61.5993,0,"2.0","0.0","62.2799224854","0.680626451969",10.0677,1.5147,"1.01937353611",2.53407,62.5966,65.1326,NA,NA,NA,NA,NA,NA,NA,NA,"A001"
"40",5,"Experiential","Run2",0.2,1,2,0,0,0,"SD3",-7,-34,-7,-6.8,"SD",0.8,1,4,100.268,NA,NA,118.117,121.148,1,"2.0","0.0","121.562141418","0.413927674294",21.5939,1.3975,"1.28607237339",2.83579,122.073,124.915,28,15,13,3,18,17.8479,118.116,0.152222,"A001"
"41",6,"Descriptive","Run1",0.6,1,2,0,0,0,"SD8",7,12,7,7.2,"SD",0.4,1,5,67.5592,73.6157,6.05645,73.6159,76.6489,0,"2","0","77.1518938878","0.502993270406",9.89269,1.2493,"1.19700672959",2.44631,77.4658,79.9151,NA,NA,NA,NA,NA,NA,NA,NA,"A001"
"42",6,"Experiential","Run1",0.5,0.4,1,0.6,50,30,"RR8",-15,14,24,22,"RR",0.5,1,5,123.507,NA,NA,138.523,141.555,0,"1.0","0.0","142.571289062","1.01665210724",19.3643,1.0587,"0.683347940445",1.72664,143.082,144.822,18,8,10,2,15,15.0155,138.522,-0.0154121,"A001"
"43",6,"Descriptive","Run1",0.6,1,2,0,0,0,"SD8",7,12,7,7.2,"SD",0.4,1,5,67.5592,73.6157,6.05645,73.6159,76.6489,0,"2","0","77.1518938878","0.502993270406",9.89269,1.2493,"1.19700672959",2.44631,77.4658,79.9151,NA,NA,NA,NA,NA,NA,NA,NA,"A001"
"44",6,"Experiential","Run2",0.8,1,2,0,0,0,"SD9",13,16,13,12.8,"SD",0.2,1,5,124.915,NA,NA,139.43,142.463,0,"2.0","0.0","142.842163086","0.379440963268",18.2269,1.5734,"1.32055902481",3.37942,143.354,146.746,16,9,7,1,15,14.5146,139.43,0.48546,"A001"
"45",6,"Descriptive","Run2",0.8,1,2,0,0,0,"SD7",3,4,3,3.2,"SD",0.2,1,5,65.1569,71.1984,6.04154,71.1987,74.2313,0,"2.0","0.0","74.5918197632","0.360502660275",9.73495,2.2412,"1.3394973278",3.5807,74.9074,78.4979,NA,NA,NA,NA,NA,NA,NA,NA,"A001"
"46",6,"Experiential","Run1",0.5,0.4,1,0.6,50,30,"RR8",-15,14,24,22,"RR",0.5,1,5,123.507,NA,NA,138.523,141.555,0,"1.0","0.0","142.571289062","1.01665210724",19.3643,1.0587,"0.683347940445",1.72664,143.082,144.822,18,8,10,2,15,15.0155,138.522,-0.0154121,"A001"
"47",6,"Descriptive","Run2",0.8,1,2,0,0,0,"SD7",3,4,3,3.2,"SD",0.2,1,5,65.1569,71.1984,6.04154,71.1987,74.2313,0,"2.0","0.0","74.5918197632","0.360502660275",9.73495,2.2412,"1.3394973278",3.5807,74.9074,78.4979,NA,NA,NA,NA,NA,NA,NA,NA,"A001"
"48",6,"Experiential","Run2",0.8,1,2,0,0,0,"SD9",13,16,13,12.8,"SD",0.2,1,5,124.915,NA,NA,139.43,142.463,0,"2.0","0.0","142.842163086","0.379440963268",18.2269,1.5734,"1.32055902481",3.37942,143.354,146.746,16,9,7,1,15,14.5146,139.43,0.48546,"A001"
"49",7,"Descriptive","Run1",0.4,1,2,0,0,0,"SD11",8,22,8,8.8,"SD",0.6,1,6,79.9367,85.9812,6.04444,85.9814,89.0141,1,"2","0","89.503841694","0.48971375986",9.86711,3.1912,"1.21028624014",4.40149,89.8181,94.2303,NA,NA,NA,NA,NA,NA,NA,NA,"A001"
"50",7,"Experiential","Run1",0.6,1,2,0,0,-22,"MD1",-6,4,-6,-6.4,"MD",0.4,1,6,144.822,NA,NA,159.336,162.369,1,"2.0","0.0","162.739334106","0.370674669743",18.2175,2.2012,"1.32932531834",4.01657,163.251,167.268,21,13,8,1,15,14.514,159.336,0.48605,"A001"
"51",7,"Descriptive","Run1",0.4,1,2,0,0,0,"SD11",8,22,8,8.8,"SD",0.6,1,6,79.9367,85.9812,6.04444,85.9814,89.0141,1,"2","0","89.503841694","0.48971375986",9.86711,3.1912,"1.21028624014",4.40149,89.8181,94.2303,NA,NA,NA,NA,NA,NA,NA,NA,"A001"
"52",7,"Experiential","Run2",0.8,0.1,1,0.9,35,40,"RR7",-20,24,29.5,27.2,"RR",0.2,1,6,146.746,NA,NA,161.412,164.444,1,"1.0","0.0","164.778091431","0.334426552057",18.3319,1.0113,"1.36557340622",2.7121,165.29,168.01,22,14,8,2,15,14.6648,161.411,0.33523,"A001"
"53",7,"Descriptive","Run2",0.4,1,2,0,0,0,"SD2",-2,-4,-2,-1.6,"SD",0.6,1,6,78.519,84.5636,6.04458,84.5639,87.5962,1,"1.0","1.0","88.4238128662","0.827597796917",10.2048,4.3408,"0.872402191162",5.2132,88.7387,93.962,NA,NA,NA,NA,NA,NA,NA,NA,"A001"
"54",7,"Experiential","Run1",0.6,1,2,0,0,-22,"MD1",-6,4,-6,-6.4,"MD",0.4,1,6,144.822,NA,NA,159.336,162.369,1,"2.0","0.0","162.739334106","0.370674669743",18.2175,2.2012,"1.32932531834",4.01657,163.251,167.268,21,13,8,1,15,14.514,159.336,0.48605,"A001"
"55",7,"Descriptive","Run2",0.4,1,2,0,0,0,"SD2",-2,-4,-2,-1.6,"SD",0.6,1,6,78.519,84.5636,6.04458,84.5639,87.5962,1,"1.0","1.0","88.4238128662","0.827597796917",10.2048,4.3408,"0.872402191162",5.2132,88.7387,93.962,NA,NA,NA,NA,NA,NA,NA,NA,"A001"
"56",7,"Experiential","Run2",0.8,0.1,1,0.9,35,40,"RR7",-20,24,29.5,27.2,"RR",0.2,1,6,146.746,NA,NA,161.412,164.444,1,"1.0","0.0","164.778091431","0.334426552057",18.3319,1.0113,"1.36557340622",2.7121,165.29,168.01,22,14,8,2,15,14.6648,161.411,0.33523,"A001"
"57",8,"Descriptive","Run1",0.8,0.1,1,0.9,35,40,"RR7",-20,24,29.5,27.2,"RR",0.2,1,7,94.2636,100.329,6.06582,100.33,103.363,1,"1","0","103.815798049","0.453090705094",9.8522,1.1231,"1.24690929491",2.37001,104.135,106.512,NA,NA,NA,NA,NA,NA,NA,NA,"A001"
"58",8,"Experiential","Run1",0.3,0.5,1,0.5,30,15,"RR4",-8,5,11,12,"RR",0.7,1,7,167.269,NA,NA,181.784,184.816,1,"1.0","0.0","185.747268677","0.931078314781",18.7786,1.8631,"0.768921673298",3.11729,186.259,189.383,17,10,7,1,15,14.5148,181.784,0.485272,"A001"
"59",8,"Descriptive","Run1",0.8,0.1,1,0.9,35,40,"RR7",-20,24,29.5,27.2,"RR",0.2,1,7,94.2636,100.329,6.06582,100.33,103.363,1,"1","0","103.815798049","0.453090705094",9.8522,1.1231,"1.24690929491",2.37001,104.135,106.512,NA,NA,NA,NA,NA,NA,NA,NA,"A001"
"60",8,"Experiential","Run2",0.9,1,2,0,0,-30,"MD2",-1,2,-1,-1.2,"MD",0.1,1,7,168.01,NA,NA,182.993,186.024,1,"2.0","0.0","186.394073486","0.369987100363",18.6838,3.6695,"1.33001291752",5.01738,186.903,191.924,22,9,13,1,15,14.9822,182.992,0.0178633,"A001"
"61",8,"Descriptive","Run2",0.8,1,2,0,0,-9,"MD9",5,8,5,4.6,"MD",0.2,1,7,93.9892,100.028,6.03877,100.028,103.061,1,"2.0","0.0","103.423789978","0.362497419119",9.73456,1.2203,"1.33750259876",2.5578,103.74,106.311,NA,NA,NA,NA,NA,NA,NA,NA,"A001"
"62",8,"Experiential","Run1",0.3,0.5,1,0.5,30,15,"RR4",-8,5,11,12,"RR",0.7,1,7,167.269,NA,NA,181.784,184.816,1,"1.0","0.0","185.747268677","0.931078314781",18.7786,1.8631,"0.768921673298",3.11729,186.259,189.383,17,10,7,1,15,14.5148,181.784,0.485272,"A001"
"63",8,"Descriptive","Run2",0.8,1,2,0,0,-9,"MD9",5,8,5,4.6,"MD",0.2,1,7,93.9892,100.028,6.03877,100.028,103.061,1,"2.0","0.0","103.423789978","0.362497419119",9.73456,1.2203,"1.33750259876",2.5578,103.74,106.311,NA,NA,NA,NA,NA,NA,NA,NA,"A001"
"64",8,"Experiential","Run2",0.9,1,2,0,0,-30,"MD2",-1,2,-1,-1.2,"MD",0.1,1,7,168.01,NA,NA,182.993,186.024,1,"2.0","0.0","186.394073486","0.369987100363",18.6838,3.6695,"1.33001291752",5.01738,186.903,191.924,22,9,13,1,15,14.9822,182.992,0.0178633,"A001"
"65",9,"Descriptive","Run1",0.2,1,2,0,0,0,"SD3",-7,-34,-7,-6.8,"SD",0.8,1,8,106.538,112.578,6.03984,112.578,115.611,1,"2","0","116.215830747","0.60513940081",9.97777,1.1622,"1.09486059919",2.25706,116.531,118.794,NA,NA,NA,NA,NA,NA,NA,NA,"A001"
"66",9,"Experiential","Run1",0.6,1,2,0,0,0,"SD8",7,12,7,7.2,"SD",0.4,1,8,189.383,NA,NA,203.898,206.93,1,"2.0","0.0","207.387329102","0.457379639149",18.3042,1.5966,"1.24262034893",3.32529,207.897,211.23,18,11,7,1,15,14.514,203.897,0.486067,"A001"
"67",9,"Descriptive","Run1",0.2,1,2,0,0,0,"SD3",-7,-34,-7,-6.8,"SD",0.8,1,8,106.538,112.578,6.03984,112.578,115.611,1,"2","0","116.215830747","0.60513940081",9.97777,1.1622,"1.09486059919",2.25706,116.531,118.794,NA,NA,NA,NA,NA,NA,NA,NA,"A001"
"68",9,"Experiential","Run2",0.1,1,2,0,0,-1,"MD10",2,42,2,3.3,"MD",0.9,1,8,191.924,NA,NA,206.439,209.471,1,"NA","NA","NA","NA",2,1.8808,"NA",2.36604,211.478,213.855,22,7,15,1,15,14.5148,206.439,0.485243,"A001"
"69",9,"Descriptive","Run2",0.7,0.1,1,0.9,30,38,"RR11",-10,22,26,26.8,"RR",0.3,1,8,106.341,112.393,6.05237,112.394,115.426,1,"1.0","0.0","115.711746216","0.285515516996",9.67066,1.0075,"1.41448450089",2.42198,116.03,118.459,NA,NA,NA,NA,NA,NA,NA,NA,"A001"
"70",9,"Experiential","Run1",0.6,1,2,0,0,0,"SD8",7,12,7,7.2,"SD",0.4,1,8,189.383,NA,NA,203.898,206.93,1,"2.0","0.0","207.387329102","0.457379639149",18.3042,1.5966,"1.24262034893",3.32529,207.897,211.23,18,11,7,1,15,14.514,203.897,0.486067,"A001"
"71",9,"Descriptive","Run2",0.7,0.1,1,0.9,30,38,"RR11",-10,22,26,26.8,"RR",0.3,1,8,106.341,112.393,6.05237,112.394,115.426,1,"1.0","0.0","115.711746216","0.285515516996",9.67066,1.0075,"1.41448450089",2.42198,116.03,118.459,NA,NA,NA,NA,NA,NA,NA,NA,"A001"
"72",9,"Experiential","Run2",0.1,1,2,0,0,-1,"MD10",2,42,2,3.3,"MD",0.9,1,8,191.924,NA,NA,206.439,209.471,1,"NA","NA","NA","NA",2,1.8808,"NA",2.36604,211.478,213.855,22,7,15,1,15,14.5148,206.439,0.485243,"A001"
"73",10,"Descriptive","Run1",0.1,1,2,0,0,-5,"MD5",-4,25,-4,-2,"MD",0.9,1,9,118.819,124.877,6.05774,124.877,127.91,1,"1","1","128.391838444","0.482186690206",9.87303,2.3911,"1.21781330979",3.60891,128.708,132.326,NA,NA,NA,NA,NA,NA,NA,NA,"A001"
"74",10,"Experiential","Run1",0.4,1,2,0,0,0,"SD11",8,22,8,8.8,"SD",0.6,1,9,211.23,NA,NA,228.796,231.827,1,"2.0","0.0","232.507217407","0.679990589619",21.5769,1.233,"1.02000939846",2.68841,233.017,235.71,28,10,18,2,18,17.5647,228.795,0.435404,"A001"
"75",10,"Descriptive","Run1",0.1,1,2,0,0,-5,"MD5",-4,25,-4,-2,"MD",0.9,1,9,118.819,124.877,6.05774,124.877,127.91,1,"1","1","128.391838444","0.482186690206",9.87303,2.3911,"1.21781330979",3.60891,128.708,132.326,NA,NA,NA,NA,NA,NA,NA,NA,"A001"
"76",10,"Experiential","Run2",0.7,1,2,0,0,0,"SD5",-8,-10,-8,-7,"SD",0.3,1,9,213.855,NA,NA,231.37,234.402,1,"1","1","234.778091337","0.376179420273",21.2232,1.2245,"1.32382057973",3.03403,235.288,238.335,20,7,13,2,18,17.5144,231.369,0.485707,"A001"
"77",10,"Descriptive","Run2",0.6,1,2,0,0,-22,"MD1",-6,4,-6,-6.4,"MD",0.4,1,9,118.489,124.525,6.0361,124.525,127.558,1,"2.0","0.0","127.855796814","0.297569781542",9.66685,1.783,"1.40243017673",3.18543,128.172,131.375,NA,NA,NA,NA,NA,NA,NA,NA,"A001"
"78",10,"Experiential","Run1",0.4,1,2,0,0,0,"SD11",8,22,8,8.8,"SD",0.6,1,9,211.23,NA,NA,228.796,231.827,1,"2.0","0.0","232.507217407","0.679990589619",21.5769,1.233,"1.02000939846",2.68841,233.017,235.71,28,10,18,2,18,17.5647,228.795,0.435404,"A001"
"79",10,"Descriptive","Run2",0.6,1,2,0,0,-22,"MD1",-6,4,-6,-6.4,"MD",0.4,1,9,118.489,124.525,6.0361,124.525,127.558,1,"2.0","0.0","127.855796814","0.297569781542",9.66685,1.783,"1.40243017673",3.18543,128.172,131.375,NA,NA,NA,NA,NA,NA,NA,NA,"A001"
"80",10,"Experiential","Run2",0.7,1,2,0,0,0,"SD5",-8,-10,-8,-7,"SD",0.3,1,9,213.855,NA,NA,231.37,234.402,1,"1","1","234.778091337","0.376179420273",21.2232,1.2245,"1.32382057973",3.03403,235.288,238.335,20,7,13,2,18,17.5144,231.369,0.485707,"A001"
"81",11,"Descriptive","Run1",0.4,0.4,1,0.6,17,12,"RR2",-5,5,8.2,9.2,"RR",0.6,1,10,132.355,138.392,6.03671,138.392,141.425,0,"1","0","141.879819109","0.455168153625",9.82491,4.7413,"1.24483184638",5.98613,142.196,148.191,NA,NA,NA,NA,NA,NA,NA,NA,"A001"
"82",11,"Experiential","Run1",0.5,0.3,1,0.7,35,30,"RR5",-10,10,21.5,20,"RR",0.5,1,10,235.711,NA,NA,251.226,254.258,0,"1.0","0.0","254.755310059","0.497334092855",19.3446,1.3248,"1.20266592503",3.01325,255.267,258.291,18,5,13,2,16,15.5143,251.225,0.485786,"A001"
"83",11,"Descriptive","Run1",0.4,0.4,1,0.6,17,12,"RR2",-5,5,8.2,9.2,"RR",0.6,1,10,132.355,138.392,6.03671,138.392,141.425,0,"1","0","141.879819109","0.455168153625",9.82491,4.7413,"1.24483184638",5.98613,142.196,148.191,NA,NA,NA,NA,NA,NA,NA,NA,"A001"
"84",11,"Experiential","Run2",0.4,0.4,1,0.6,17,12,"RR2",-5,5,8.2,9.2,"RR",0.6,1,10,238.336,NA,NA,253.851,256.883,0,"1","0","257.281999108","0.398920346051",19.2462,2.3911,"1.30107965395",4.17783,257.793,261.982,20,9,11,2,16,15.5144,253.85,0.48565,"A001"
"85",11,"Descriptive","Run2",0.3,0.5,1,0.5,30,15,"RR4",-8,5,11,12,"RR",0.7,1,10,131.404,137.457,6.05281,137.457,140.49,0,"1.0","0.0","140.927780151","0.437779814005",9.82387,2.1542,"1.26222014427",3.41642,141.245,144.673,NA,NA,NA,NA,NA,NA,NA,NA,"A001"
"86",11,"Experiential","Run1",0.5,0.3,1,0.7,35,30,"RR5",-10,10,21.5,20,"RR",0.5,1,10,235.711,NA,NA,251.226,254.258,0,"1.0","0.0","254.755310059","0.497334092855",19.3446,1.3248,"1.20266592503",3.01325,255.267,258.291,18,5,13,2,16,15.5143,251.225,0.485786,"A001"
"87",11,"Descriptive","Run2",0.3,0.5,1,0.5,30,15,"RR4",-8,5,11,12,"RR",0.7,1,10,131.404,137.457,6.05281,137.457,140.49,0,"1.0","0.0","140.927780151","0.437779814005",9.82387,2.1542,"1.26222014427",3.41642,141.245,144.673,NA,NA,NA,NA,NA,NA,NA,NA,"A001"
"88",11,"Experiential","Run2",0.4,0.4,1,0.6,17,12,"RR2",-5,5,8.2,9.2,"RR",0.6,1,10,238.336,NA,NA,253.851,256.883,0,"1","0","257.281999108","0.398920346051",19.2462,2.3911,"1.30107965395",4.17783,257.793,261.982,20,9,11,2,16,15.5144,253.85,0.48565,"A001"
"89",12,"Descriptive","Run1",0.1,1,2,0,0,0,"SD10",3,32,3,3.2,"SD",0.9,1,11,148.221,154.257,6.03599,154.257,157.29,1,"2","0","158.711789691","1.42202714726",10.7909,1.2245,"0.277972852741",1.50247,159.028,160.54,NA,NA,NA,NA,NA,NA,NA,NA,"A001"
"90",12,"Experiential","Run1",0.1,1,2,0,0,0,"SD1",-3,-32,-3,-3.2,"SD",0.9,1,11,258.292,NA,NA,272.807,275.839,0,"NA","NA","NA","NA",2,1.2377,"NA",1.72337,277.846,279.572,20,11,9,1,15,14.5144,272.806,0.485674,"A001"
"91",12,"Descriptive","Run1",0.1,1,2,0,0,0,"SD10",3,32,3,3.2,"SD",0.9,1,11,148.221,154.257,6.03599,154.257,157.29,1,"2","0","158.711789691","1.42202714726",10.7909,1.2245,"0.277972852741",1.50247,159.028,160.54,NA,NA,NA,NA,NA,NA,NA,NA,"A001"
"92",12,"Experiential","Run2",0.9,1,2,0,0,-37,"MD3",-5,10,-5,5.3,"MD",0.1,1,11,261.983,NA,NA,276.599,279.63,0,"1","1","279.969982718","0.339722500881",18.2873,1.2853,"1.36027749912",3.02962,280.481,283.513,23,16,7,2,15,14.616,276.599,0.384038,"A001"
"93",12,"Descriptive","Run2",0.1,1,2,0,0,0,"SD1",-3,-32,-3,-3.2,"SD",0.9,1,11,144.701,150.739,6.03749,150.739,153.772,1,"1.0","1.0","155.399871826","1.62814581394",10.9986,2.5659,"0.0718542337418",2.63775,155.715,158.356,NA,NA,NA,NA,NA,NA,NA,NA,"A001"
"94",12,"Experiential","Run1",0.1,1,2,0,0,0,"SD1",-3,-32,-3,-3.2,"SD",0.9,1,11,258.292,NA,NA,272.807,275.839,0,"NA","NA","NA","NA",2,1.2377,"NA",1.72337,277.846,279.572,20,11,9,1,15,14.5144,272.806,0.485674,"A001"
"95",12,"Descriptive","Run2",0.1,1,2,0,0,0,"SD1",-3,-32,-3,-3.2,"SD",0.9,1,11,144.701,150.739,6.03749,150.739,153.772,1,"1.0","1.0","155.399871826","1.62814581394",10.9986,2.5659,"0.0718542337418",2.63775,155.715,158.356,NA,NA,NA,NA,NA,NA,NA,NA,"A001"
"96",12,"Experiential","Run2",0.9,1,2,0,0,-37,"MD3",-5,10,-5,5.3,"MD",0.1,1,11,261.983,NA,NA,276.599,279.63,0,"1","1","279.969982718","0.339722500881",18.2873,1.2853,"1.36027749912",3.02962,280.481,283.513,23,16,7,2,15,14.616,276.599,0.384038,"A001"
"97",13,"Descriptive","Run1",0.5,0.3,1,0.7,35,30,"RR5",-10,10,21.5,20,"RR",0.5,1,12,160.571,166.605,6.03485,166.606,169.638,0,"1","0","170.071751268","0.433536182274",9.80116,1.1188,"1.26646381773",2.38526,170.391,172.788,NA,NA,NA,NA,NA,NA,NA,NA,"A001"
"98",13,"Experiential","Run1",0.2,1,2,0,0,0,"SD12",6,29,6,5.8,"SD",0.8,1,12,279.572,NA,NA,295.271,298.303,0,"2","0","298.771228432","0.468272466678",19.4988,4.653,"1.23172753332",6.18654,299.281,305.469,23,12,11,2,16,15.6983,295.271,0.301817,"A001"
"99",13,"Descriptive","Run1",0.5,0.3,1,0.7,35,30,"RR5",-10,10,21.5,20,"RR",0.5,1,12,160.571,166.605,6.03485,166.606,169.638,0,"1","0","170.071751268","0.433536182274",9.80116,1.1188,"1.26646381773",2.38526,170.391,172.788,NA,NA,NA,NA,NA,NA,NA,NA,"A001"
"100",13,"Experiential","Run2",0.8,0.6,1,0.4,18,10,"RR9",-4,2,4.8,3.6,"RR",0.2,1,12,283.514,NA,NA,299.028,302.061,0,"1","0","302.489977689","0.429142654175",19.2763,1.4411,"1.27085734583",3.1979,303.001,306.21,17,3,14,1,16,15.5141,299.028,0.485938,"A001"
"101",13,"Descriptive","Run2",0.9,1,2,0,0,-8,"MD7",4,6,4,4.6,"MD",0.1,1,12,158.381,164.421,6.03994,164.421,167.454,0,"2.0","0.0","167.847717285","0.394220590591",9.76697,1.6301,"1.30577945709",2.93588,168.209,171.153,NA,NA,NA,NA,NA,NA,NA,NA,"A001"
"102",13,"Experiential","Run1",0.2,1,2,0,0,0,"SD12",6,29,6,5.8,"SD",0.8,1,12,279.572,NA,NA,295.271,298.303,0,"2","0","298.771228432","0.468272466678",19.4988,4.653,"1.23172753332",6.18654,299.281,305.469,23,12,11,2,16,15.6983,295.271,0.301817,"A001"
"103",13,"Descriptive","Run2",0.9,1,2,0,0,-8,"MD7",4,6,4,4.6,"MD",0.1,1,12,158.381,164.421,6.03994,164.421,167.454,0,"2.0","0.0","167.847717285","0.394220590591",9.76697,1.6301,"1.30577945709",2.93588,168.209,171.153,NA,NA,NA,NA,NA,NA,NA,NA,"A001"
"104",13,"Experiential","Run2",0.8,0.6,1,0.4,18,10,"RR9",-4,2,4.8,3.6,"RR",0.2,1,12,283.514,NA,NA,299.028,302.061,0,"1","0","302.489977689","0.429142654175",19.2763,1.4411,"1.27085734583",3.1979,303.001,306.21,17,3,14,1,16,15.5141,299.028,0.485938,"A001"
"105",14,"Descriptive","Run1",0.4,1,2,0,0,-20,"MD4",-4,15,-4,-6,"MD",0.6,1,13,172.862,178.904,6.04151,178.904,181.937,1,"2","0","183.071728613","1.13484196924",10.5094,3.4263,"0.565158030763",3.99146,183.388,187.386,NA,NA,NA,NA,NA,NA,NA,NA,"A001"
"106",14,"Experiential","Run1",0.2,1,2,0,0,-7,"MD6",-2,24,-2,-0.8,"MD",0.8,1,13,305.47,NA,NA,320.135,323.167,0,"1","1","323.603124253","0.436278927838",18.4336,5.4629,"1.26372107216",7.06144,324.114,331.183,22,16,6,2,15,14.6653,320.135,0.334815,"A001"
"107",14,"Descriptive","Run1",0.4,1,2,0,0,-20,"MD4",-4,15,-4,-6,"MD",0.6,1,13,172.862,178.904,6.04151,178.904,181.937,1,"2","0","183.071728613","1.13484196924",10.5094,3.4263,"0.565158030763",3.99146,183.388,187.386,NA,NA,NA,NA,NA,NA,NA,NA,"A001"
"108",14,"Experiential","Run2",0.8,1,2,0,0,-9,"MD9",5,8,5,4.6,"MD",0.2,1,13,306.211,NA,NA,321.16,324.191,0,"2","0","324.561915859","0.370467380621",18.6513,1.3267,"1.32953261938",2.7078,325.072,327.791,23,15,8,2,15,14.9485,321.159,0.0515651,"A001"
"109",14,"Descriptive","Run2",0.8,1,2,0,0,0,"SD4",-3,-4,-3,-3.2,"SD",0.2,1,13,171.179,177.236,6.05667,177.236,180.269,1,"1.0","1.0","180.663711548","0.394769608974",9.78465,1.1412,"1.3052303791",2.44643,180.979,183.435,NA,NA,NA,NA,NA,NA,NA,NA,"A001"
"110",14,"Experiential","Run1",0.2,1,2,0,0,-7,"MD6",-2,24,-2,-0.8,"MD",0.8,1,13,305.47,NA,NA,320.135,323.167,0,"1","1","323.603124253","0.436278927838",18.4336,5.4629,"1.26372107216",7.06144,324.114,331.183,22,16,6,2,15,14.6653,320.135,0.334815,"A001"
"111",14,"Descriptive","Run2",0.8,1,2,0,0,0,"SD4",-3,-4,-3,-3.2,"SD",0.2,1,13,171.179,177.236,6.05667,177.236,180.269,1,"1.0","1.0","180.663711548","0.394769608974",9.78465,1.1412,"1.3052303791",2.44643,180.979,183.435,NA,NA,NA,NA,NA,NA,NA,NA,"A001"
"112",14,"Experiential","Run2",0.8,1,2,0,0,-9,"MD9",5,8,5,4.6,"MD",0.2,1,13,306.211,NA,NA,321.16,324.191,0,"2","0","324.561915859","0.370467380621",18.6513,1.3267,"1.32953261938",2.7078,325.072,327.791,23,15,8,2,15,14.9485,321.159,0.0515651,"A001"
"113",15,"Descriptive","Run1",0.8,0.3,1,0.7,40,33,"RR12",-25,18,20.5,21,"RR",0.2,1,14,187.419,193.452,6.03334,193.453,196.485,0,"1","0","197.007679612","0.522487380309",9.88869,1.1057,"1.17751261969",2.28321,197.328,199.618,NA,NA,NA,NA,NA,NA,NA,NA,"A001"
"114",15,"Experiential","Run1",0.8,1,2,0,0,0,"SD4",-3,-4,-3,-3.2,"SD",0.2,1,14,331.183,NA,NA,347.216,350.247,0,"1","1","350.691037482","0.443842245266",19.8078,2.274,"1.25615775473",3.4984,351.2,354.714,24,17,7,2,16,16.0319,347.215,-0.0317568,"A001"
"115",15,"Descriptive","Run1",0.8,0.3,1,0.7,40,33,"RR12",-25,18,20.5,21,"RR",0.2,1,14,187.419,193.452,6.03334,193.453,196.485,0,"1","0","197.007679612","0.522487380309",9.88869,1.1057,"1.17751261969",2.28321,197.328,199.618,NA,NA,NA,NA,NA,NA,NA,NA,"A001"
"116",15,"Experiential","Run2",0.9,1,2,0,0,-10,"MD8",3,5,3,3.5,"MD",0.1,1,14,327.792,NA,NA,343.374,346.405,0,"2","0","346.753904656","0.348611126305",19.2621,1.1749,"1.3513888737",2.94426,347.264,350.222,24,16,8,2,16,15.5821,343.374,0.417975,"A001"
"117",15,"Descriptive","Run2",0.1,1,2,0,0,-1,"MD10",2,42,2,3.3,"MD",0.9,1,14,183.462,189.501,6.03869,189.501,192.534,0,"2.0","0.0","192.887680054","0.353862524033",9.72543,1.5139,"1.34613752365",2.86004,193.203,196.067,NA,NA,NA,NA,NA,NA,NA,NA,"A001"
"118",15,"Experiential","Run1",0.8,1,2,0,0,0,"SD4",-3,-4,-3,-3.2,"SD",0.2,1,14,331.183,NA,NA,347.216,350.247,0,"1","1","350.691037482","0.443842245266",19.8078,2.274,"1.25615775473",3.4984,351.2,354.714,24,17,7,2,16,16.0319,347.215,-0.0317568,"A001"
"119",15,"Descriptive","Run2",0.1,1,2,0,0,-1,"MD10",2,42,2,3.3,"MD",0.9,1,14,183.462,189.501,6.03869,189.501,192.534,0,"2.0","0.0","192.887680054","0.353862524033",9.72543,1.5139,"1.34613752365",2.86004,193.203,196.067,NA,NA,NA,NA,NA,NA,NA,NA,"A001"
"120",15,"Experiential","Run2",0.9,1,2,0,0,-10,"MD8",3,5,3,3.5,"MD",0.1,1,14,327.792,NA,NA,343.374,346.405,0,"2","0","346.753904656","0.348611126305",19.2621,1.1749,"1.3513888737",2.94426,347.264,350.222,24,16,8,2,16,15.5821,343.374,0.417975,"A001"
"121",16,"Descriptive","Run1",0.9,0.7,1,0.3,25,15,"RR10",-3,5,5.4,6,"RR",0.1,1,15,199.65,205.7,6.05057,205.701,208.734,1,"1","0","209.207662168","0.473986394354",9.8578,2.5049,"1.22601360565",3.73091,209.525,213.266,NA,NA,NA,NA,NA,NA,NA,NA,"A001"
"122",16,"Experiential","Run1",0.8,1,2,0,0,0,"SD6",12,14,12,11.2,"SD",0.2,1,15,354.714,NA,NA,373.712,376.744,0,"2","0","377.226986744","0.483286582632",22.813,1.0098,"1.21671341737",2.2295,377.737,379.977,27,17,10,2,19,18.9971,373.711,0.00298402,"A001"
"123",16,"Descriptive","Run1",0.9,0.7,1,0.3,25,15,"RR10",-3,5,5.4,6,"RR",0.1,1,15,199.65,205.7,6.05057,205.701,208.734,1,"1","0","209.207662168","0.473986394354",9.8578,2.5049,"1.22601360565",3.73091,209.525,213.266,NA,NA,NA,NA,NA,NA,NA,NA,"A001"
"124",16,"Experiential","Run2",0.8,0.3,1,0.7,40,33,"RR12",-25,18,20.5,21,"RR",0.2,1,15,350.222,NA,NA,368.737,371.769,0,"1","0","372.065901034","0.296537094866",22.1437,1.0098,"1.40346290513",2.89905,372.578,375.486,15,7,8,1,19,18.5143,368.737,0.485789,"A001"
"125",16,"Descriptive","Run2",0.25,0.25,1,0.75,10,6,"RR1",-8,2,5.5,5,"RR",0.75,1,15,196.094,202.15,6.05542,202.15,205.182,1,"1.0","0.0","205.471755981","0.289324939251",9.6776,1.2245,"1.41067504883",2.63517,205.788,208.432,NA,NA,NA,NA,NA,NA,NA,NA,"A001"
"126",16,"Experiential","Run1",0.8,1,2,0,0,0,"SD6",12,14,12,11.2,"SD",0.2,1,15,354.714,NA,NA,373.712,376.744,0,"2","0","377.226986744","0.483286582632",22.813,1.0098,"1.21671341737",2.2295,377.737,379.977,27,17,10,2,19,18.9971,373.711,0.00298402,"A001"
"127",16,"Descriptive","Run2",0.25,0.25,1,0.75,10,6,"RR1",-8,2,5.5,5,"RR",0.75,1,15,196.094,202.15,6.05542,202.15,205.182,1,"1.0","0.0","205.471755981","0.289324939251",9.6776,1.2245,"1.41067504883",2.63517,205.788,208.432,NA,NA,NA,NA,NA,NA,NA,NA,"A001"
"128",16,"Experiential","Run2",0.8,0.3,1,0.7,40,33,"RR12",-25,18,20.5,21,"RR",0.2,1,15,350.222,NA,NA,368.737,371.769,0,"1","0","372.065901034","0.296537094866",22.1437,1.0098,"1.40346290513",2.89905,372.578,375.486,15,7,8,1,19,18.5143,368.737,0.485789,"A001"
"129",17,"Descriptive","Run1",0.3,1,2,0,0,-4,"MD11",5,27,5,5.3,"MD",0.7,1,16,213.29,219.332,6.04238,219.333,222.365,0,"2","0","222.791820546","0.4265698198",9.80187,1.1239,"1.2734301802",2.39733,223.108,225.515,NA,NA,NA,NA,NA,NA,NA,NA,"A001"
"130",17,"Experiential","Run1",0.25,0.25,1,0.75,10,6,"RR1",-8,2,5.5,5,"RR",0.75,1,16,379.977,NA,NA,395.492,398.525,1,"1","0","398.955018065","0.430387537461",19.2781,5.4629,"1.26961246254",7.2179,399.467,406.69,19,12,7,2,16,15.5147,395.492,0.485384,"A001"
"131",17,"Descriptive","Run1",0.3,1,2,0,0,-4,"MD11",5,27,5,5.3,"MD",0.7,1,16,213.29,219.332,6.04238,219.333,222.365,0,"2","0","222.791820546","0.4265698198",9.80187,1.1239,"1.2734301802",2.39733,223.108,225.515,NA,NA,NA,NA,NA,NA,NA,NA,"A001"
"132",17,"Experiential","Run2",0.6,0.5,1,0.5,50,25,"RR6",-15,12,17.5,17.2,"RR",0.4,1,16,375.486,NA,NA,391.001,394.034,1,"1","0","394.361958979","0.32843661611",19.176,5.0846,"1.37156338389",6.94192,394.874,401.816,12,6,6,1,16,15.5143,391,0.485754,"A001"
"133",17,"Descriptive","Run2",0.9,1,2,0,0,-37,"MD3",-5,10,-5,5.3,"MD",0.1,1,16,208.463,214.498,6.03487,214.498,217.531,0,"NA","NA","NA","NA",2,1.0825,"NA",1.0825,219.545,220.631,NA,NA,NA,NA,NA,NA,NA,NA,"A001"
"134",17,"Experiential","Run1",0.25,0.25,1,0.75,10,6,"RR1",-8,2,5.5,5,"RR",0.75,1,16,379.977,NA,NA,395.492,398.525,1,"1","0","398.955018065","0.430387537461",19.2781,5.4629,"1.26961246254",7.2179,399.467,406.69,19,12,7,2,16,15.5147,395.492,0.485384,"A001"
"135",17,"Descriptive","Run2",0.9,1,2,0,0,-37,"MD3",-5,10,-5,5.3,"MD",0.1,1,16,208.463,214.498,6.03487,214.498,217.531,0,"NA","NA","NA","NA",2,1.0825,"NA",1.0825,219.545,220.631,NA,NA,NA,NA,NA,NA,NA,NA,"A001"
"136",17,"Experiential","Run2",0.6,0.5,1,0.5,50,25,"RR6",-15,12,17.5,17.2,"RR",0.4,1,16,375.486,NA,NA,391.001,394.034,1,"1","0","394.361958979","0.32843661611",19.176,5.0846,"1.37156338389",6.94192,394.874,401.816,12,6,6,1,16,15.5143,391,0.485754,"A001"
"137",18,"Descriptive","Run1",0.5,0.4,1,0.6,50,30,"RR8",-15,14,24,22,"RR",0.5,1,17,225.547,231.564,6.01668,231.564,234.597,0,"1","0","235.375793533","0.778500634828",10.1285,1.1342,"0.921499365172",2.0557,235.695,237.764,NA,NA,NA,NA,NA,NA,NA,NA,"A001"
"138",18,"Experiential","Run1",0.8,1,2,0,0,0,"SD7",3,4,3,3.2,"SD",0.2,1,17,406.691,NA,NA,425.206,428.237,0,"2","0","428.627043608","0.389665467315",22.2363,1.048,"1.31033453268",2.84396,429.137,431.988,29,20,9,2,19,18.5144,425.205,0.485629,"A001"
"139",18,"Descriptive","Run1",0.5,0.4,1,0.6,50,30,"RR8",-15,14,24,22,"RR",0.5,1,17,225.547,231.564,6.01668,231.564,234.597,0,"1","0","235.375793533","0.778500634828",10.1285,1.1342,"0.921499365172",2.0557,235.695,237.764,NA,NA,NA,NA,NA,NA,NA,NA,"A001"
"140",18,"Experiential","Run2",0.1,1,2,0,0,0,"SD10",3,32,3,3.2,"SD",0.9,1,17,401.817,NA,NA,420.832,423.863,0,"1","1","424.225810958","0.362328252755",22.7093,1.0887,"1.33767174724",2.41182,424.736,427.163,31,23,8,2,19,19.0146,420.831,-0.0145546,"A001"
"141",18,"Descriptive","Run2",0.2,1,2,0,0,-7,"MD6",-2,24,-2,-0.8,"MD",0.8,1,17,220.664,226.714,6.04932,226.714,229.746,0,"1","1","230.167632958","0.421264434466",9.8033,1.1604,"1.27873556553",2.43914,230.484,232.93,NA,NA,NA,NA,NA,NA,NA,NA,"A001"
"142",18,"Experiential","Run1",0.8,1,2,0,0,0,"SD7",3,4,3,3.2,"SD",0.2,1,17,406.691,NA,NA,425.206,428.237,0,"2","0","428.627043608","0.389665467315",22.2363,1.048,"1.31033453268",2.84396,429.137,431.988,29,20,9,2,19,18.5144,425.205,0.485629,"A001"
"143",18,"Descriptive","Run2",0.2,1,2,0,0,-7,"MD6",-2,24,-2,-0.8,"MD",0.8,1,17,220.664,226.714,6.04932,226.714,229.746,0,"1","1","230.167632958","0.421264434466",9.8033,1.1604,"1.27873556553",2.43914,230.484,232.93,NA,NA,NA,NA,NA,NA,NA,NA,"A001"
"144",18,"Experiential","Run2",0.1,1,2,0,0,0,"SD10",3,32,3,3.2,"SD",0.9,1,17,401.817,NA,NA,420.832,423.863,0,"1","1","424.225810958","0.362328252755",22.7093,1.0887,"1.33767174724",2.41182,424.736,427.163,31,23,8,2,19,19.0146,420.831,-0.0145546,"A001"
